Folder: Juelich_Summer_School/07_Pyrolysis/Exercise/02_wood_TGA

Note: README.md
# Juelich Summer School on Fire Dynamics Modeling

Documentation repository for the [Juelich Summer School on Fire Dynamics Modeling](https://www.fz-juelich.de/en/ias/ias-7/research-1/divisions/fire-dynamics/intro/3rd-summer-school-on-fire-dynamics-modeling-2022)

# Lecture Team

Simo Hostikka (Aalto University, Finland)  
Bjarne Husted (DTU - Technical University of Denmark)  
Kevin McGrattan (NIST)  
Randall McDermott (NIST)    
Marcos Vanella (NIST)  
Jason Floyd (Fire Safety Research Institute, UL Research Institutes)  
Lukas Arnold (Forschungszentrum Jülich GmbH)  
Alexander Belt (Forschungszentrum Jülich GmbH)  
Emanuele Gissi (Corpo Nazionale dei Vigili del Fuoco)  

# Presentation Template

A beamer presentation template has been set up in Overleaf.  Feel free to use this for preparing talks.  It is much easier to put the .tex source files under version control than Power Point presentations.

[Juelich Summer School Presentation Template](https://www.overleaf.com/read/vqkjkttyvnvn)

File: Wood_TGA_10Kmin_N2.csv
s,C,g/g,1/s
Time,Temp,Mass,MLR
0,23.01411,1,8.45E-05
18,26.01411,0.9993747,1.46E-05
36,29.01411,0.9993246,-5.92E-06
54,32.01411,0.999097,1.16E-05
72,35.01411,0.9989244,1.15E-05
90,38.01411,0.9986266,1.92E-05
108,41.01411,0.9982218,1.94E-05
126,44.01411,0.9978191,2.71E-05
144,47.01411,0.9973271,2.79E-05
162,50.01411,0.9968596,2.56E-05
180,53.01411,0.9961186,4.58E-05
198,56.01411,0.9954435,4.45E-05
216,59.01411,0.9945007,4.48E-05
234,62.01411,0.9935205,5.52E-05
252,65.01411,0.9925233,5.27E-05
270,68.01411,0.9912821,7.23E-05
288,71.01411,0.9900471,6.94E-05
306,74.01411,0.9886552,7.96E-05
324,77.01411,0.9872898,7.66E-05
342,80.01411,0.98581,8.21E-05
360,83.01411,0.9843899,7.85E-05
378,86.01411,0.9830083,7.80E-05
396,89.01411,0.9816014,7.33E-05
414,92.01411,0.9803808,6.75E-05
432,95.01411,0.9792016,6.23E-05
450,98.01411,0.9782136,5.05E-05
468,101.014,0.9773288,4.68E-05
486,104.014,0.9766062,4.00E-05
504,107.014,0.9760289,2.38E-05
522,110.014,0.9755269,3.20E-05
540,113.014,0.975133,1.99E-05
558,116.014,0.9748542,1.06E-05
576,119.014,0.9746331,1.30E-05
594,122.014,0.9743949,1.41E-05
612,125.014,0.9742226,7.62E-06
630,128.014,0.9740959,6.58E-06
648,131.014,0.9739938,3.92E-06
666,134.014,0.973875,5.85E-06
684,137.014,0.9738084,1.33E-06
702,140.014,0.9736841,1.38E-05
720,143.014,0.9736541,2.27E-06
738,146.014,0.9735899,7.50E-07
756,149.014,0.9735312,4.37E-06
774,152.014,0.9734641,3.57E-06
792,155.014,0.9734175,5.00E-08
810,158.014,0.9733877,1.13E-06
828,161.014,0.973355,2.70E-06
846,164.014,0.9733133,4.33E-07
864,167.014,0.9732062,3.87E-06
882,170.014,0.9731295,5.33E-06
900,173.014,0.9730667,1.28E-06
918,176.014,0.9730189,3.75E-06
936,179.014,0.9729192,8.85E-06
954,182.014,0.9728174,3.98E-06
972,185.014,0.9726572,5.80E-06
990,188.014,0.9724946,8.55E-06
1008,191.014,0.9723407,1.03E-05
1026,194.014,0.9721324,1.09E-05
1044,197.014,0.9719539,1.44E-05
1062,200.014,0.9717115,1.30E-05
1080,203.014,0.9714326,1.79E-05
1098,206.014,0.9711318,1.80E-05
1116,209.014,0.9708008,1.85E-05
1134,212.014,0.9704191,2.62E-05
1152,215.014,0.9700519,2.76E-05
1170,218.014,0.9696282,2.83E-05
1188,221.014,0.9691553,2.30E-05
1206,224.014,0.9686307,2.72E-05
1224,227.014,0.9679542,3.77E-05
1242,230.014,0.9672683,4.42E-05
1260,233.014,0.966442,5.34E-05
1278,236.014,0.9654919,5.50E-05
1296,239.014,0.9643841,5.88E-05
1314,242.014,0.9629486,7.91E-05
1332,245.014,0.9614007,9.45E-05
1350,248.014,0.9595734,1.07E-04
1368,251.014,0.9575585,1.16E-04
1386,254.014,0.9551687,1.43E-04
1404,257.014,0.9522801,1.83E-04
1422,260.014,0.9490536,2.04E-04
1440,263.014,0.9452792,2.42E-04
1458,266.014,0.9408241,2.62E-04
1476,269.014,0.9355362,3.14E-04
1494,272.014,0.9292371,3.71E-04
1512,275.014,0.9220069,4.28E-04
1530,278.014,0.9135416,4.85E-04
1548,281.014,0.9031012,4.56E-04
1566,284.014,0.8933415,4.57E-04
1584,287.014,0.879688,9.26E-04
1602,290.014,0.8679023,5.89E-04
1620,293.014,0.8547705,5.97E-04
1638,296.014,0.8393925,7.42E-04
1656,299.014,0.8264537,8.19E-04
1674,302.014,0.8122023,6.20E-04
1692,305.014,0.7965164,8.06E-04
1710,308.014,0.7826332,6.54E-04
1728,311.014,0.769311,6.15E-04
1746,314.014,0.7540106,6.02E-04
1764,317.014,0.7387087,9.69E-04
1782,320.014,0.7239775,7.58E-04
1800,323.014,0.7096834,7.70E-04
1818,326.014,0.6953209,6.78E-04
1836,329.014,0.6794997,8.60E-04
1854,332.014,0.6648177,8.25E-04
1872,335.014,0.6504681,7.08E-04
1890,338.014,0.6361283,6.79E-04
1908,341.014,0.6194299,1.16E-03
1926,344.014,0.6051407,6.78E-04
1944,347.014,0.5870262,9.49E-04
1962,350.014,0.568906,1.08E-03
1980,353.014,0.5494829,1.10E-03
1998,356.014,0.5269426,1.33E-03
2016,359.014,0.5014379,1.39E-03
2034,362.014,0.4720218,1.64E-03
2052,365.014,0.4391334,1.84E-03
2070,368.014,0.4037104,1.95E-03
2088,371.014,0.3670433,2.03E-03
2106,374.014,0.3322823,1.87E-03
2124,377.014,0.3019677,1.60E-03
2142,380.014,0.2785642,1.20E-03
2160,383.014,0.2633732,8.85E-04
2178,386.014,0.2540229,3.41E-04
2196,389.014,0.2486496,2.81E-04
2214,392.014,0.2451868,1.84E-04
2232,395.014,0.2426247,1.35E-04
2250,398.014,0.240301,1.25E-04
2268,401.014,0.2382094,1.21E-04
2286,404.014,0.2361512,1.09E-04
2304,407.014,0.2341364,1.13E-04
2322,410.014,0.2321765,9.72E-05
2340,413.014,0.2301924,1.06E-04
2358,416.014,0.2282068,1.09E-04
2376,419.014,0.2262576,1.10E-04
2394,422.014,0.2243484,1.06E-04
2412,425.014,0.2224598,1.09E-04
2430,428.014,0.2206454,9.97E-05
2448,431.014,0.2188439,1.00E-04
2466,434.014,0.217169,9.30E-05
2484,437.014,0.2154425,9.63E-05
2502,440.014,0.2138261,8.88E-05
2520,443.014,0.2123156,8.27E-05
2538,446.014,0.2108284,8.31E-05
2556,449.014,0.2094631,7.51E-05
2574,452.014,0.2081182,7.54E-05
2592,455.014,0.2069351,7.07E-05
2610,458.014,0.205696,6.54E-05
2628,461.014,0.2046,6.13E-05
2646,464.014,0.2034843,6.02E-05
2664,467.014,0.2024376,5.38E-05
2682,470.014,0.201482,5.21E-05
2700,473.014,0.2005563,5.23E-05
2718,476.014,0.1996398,5.22E-05
2736,479.014,0.1987054,5.03E-05
2754,482.014,0.1979082,5.01E-05
2772,485.014,0.1970434,5.04E-05
2790,488.014,0.1962516,4.52E-05
2808,491.014,0.195467,4.33E-05
2826,494.014,0.1946882,4.57E-05
2844,497.014,0.1939536,4.30E-05
2862,500.014,0.1932037,4.18E-05
2880,503.014,0.1925157,3.67E-05
2898,506.014,0.1917889,4.56E-05
2916,509.014,0.1911055,3.03E-05
2934,512.014,0.1904735,3.33E-05
2952,515.014,0.1897874,2.60E-05
2970,518.014,0.1890927,4.10E-05
2988,521.014,0.188399,4.06E-05
3006,524.014,0.1877581,2.96E-05
3024,527.014,0.1872067,3.83E-05
3042,530.014,0.1865776,3.70E-05
3060,533.014,0.1860379,2.52E-05
3078,536.014,0.1854108,2.74E-05
3096,539.014,0.1848547,3.64E-05
3114,542.014,0.1842172,3.29E-05
3132,545.014,0.1837117,1.91E-05
3150,548.014,0.183101,2.87E-05
3168,551.014,0.1826247,2.48E-05
3186,554.014,0.1820766,1.86E-05
3204,557.014,0.1815191,2.51E-05
3222,560.014,0.1810717,2.22E-05
3240,563.014,0.1804606,2.75E-05
3258,566.014,0.1799687,3.44E-05
3276,569.014,0.17945,2.82E-05
3294,572.014,0.1789614,2.91E-05
3312,575.014,0.1785949,1.96E-05
3330,578.014,0.1780787,1.83E-05
3348,581.014,0.1775854,2.19E-05
3366,584.014,0.1771682,2.85E-05
3384,587.014,0.1767277,2.46E-05
3402,590.014,0.1762355,2.55E-05
3420,593.014,0.1758995,7.02E-06
3438,596.014,0.1753994,2.77E-05
3456,599.014,0.1750013,3.39E-05
3474,602.014,0.1745961,2.24E-05
3492,605.014,0.1741989,2.44E-05
3510,608.014,0.173824,1.69E-05
3528,611.014,0.1734179,2.08E-05
3546,614.014,0.173051,3.00E-05
3564,617.014,0.1727545,2.08E-05
3582,620.014,0.1723558,2.62E-05
3600,623.014,0.1721367,1.33E-06
3618,626.014,0.1717143,2.13E-05
3636,629.014,0.1714896,2.74E-05
3654,632.014,0.1711988,2.80E-06
3672,635.014,0.1708434,2.99E-05
3690,638.014,0.1706134,-2.62E-06
3708,641.014,0.1703104,1.78E-05
3726,644.014,0.1700768,3.38E-05
3744,647.014,0.1698658,9.85E-06
3762,650.014,0.169584,8.98E-06
3780,653.014,0.1692541,2.36E-05
3798,656.014,0.1691207,2.67E-06
3816,659.014,0.1688941,1.82E-05
3834,662.014,0.1685732,2.08E-05
3852,665.014,0.1684869,5.28E-06
3870,668.014,0.1682524,3.93E-06
3888,671.014,0.1680559,4.15E-06
3906,674.014,0.1677818,1.56E-05
3924,677.014,0.1676668,-3.88E-06
3942,680.014,0.1674168,2.42E-05
3960,683.014,0.1672708,1.24E-05
3978,686.014,0.1671639,-1.35E-06
3996,689.014,0.167011,-4.83E-07
4014,692.014,0.1667273,1.21E-05
4032,695.014,0.1665507,6.50E-07
4050,698.014,0.1663434,9.23E-06
4068,701.014,0.1662564,2.67E-07
4086,704.014,0.1659714,2.15E-05
4104,707.014,0.1658412,7.70E-06
4122,710.014,0.165758,6.63E-06
4140,713.014,0.1656239,8.68E-06
4158,716.014,0.1654513,8.48E-06
4176,719.014,0.1651275,2.48E-05
4194,722.014,0.1650461,1.47E-05
4212,725.014,0.1648578,1.49E-05
4230,728.014,0.1646681,2.60E-06
4248,731.014,0.1645196,4.45E-06
4266,734.014,0.1643881,6.27E-06
4284,737.014,0.1643169,1.01E-05
4302,740.014,0.1640227,2.21E-05
4320,743.014,0.1638422,2.92E-06
4338,746.014,0.1636442,6.58E-06
4356,749.014,0.1634943,6.52E-06
4374,752.014,0.1633454,5.20E-06
4392,755.014,0.1631899,3.60E-06
4410,758.014,0.1630082,1.33E-05
4428,761.014,0.1628847,6.25E-06
4446,764.014,0.1627069,1.34E-05
4464,767.014,0.1625631,1.34E-05
4482,770.014,0.1624474,8.80E-06
4500,773.014,0.1622841,9.30E-06
4518,776.014,0.1620949,1.70E-05
4536,779.014,0.1619229,6.38E-06
4554,782.014,0.1617779,1.37E-05
4572,785.014,0.1617363,-3.27E-06
4590,788.014,0.1615354,9.53E-06
4608,791.014,0.1614475,3.82E-06
4626,794.014,0.1612835,5.83E-06
4644,797.014,0.1611616,3.95E-06