Folder: Juelich_Summer_School/07_Pyrolysis/Exercise/03_non-first-order_TGA

Note: README.md
# Juelich Summer School on Fire Dynamics Modeling

Documentation repository for the [Juelich Summer School on Fire Dynamics Modeling](https://www.fz-juelich.de/en/ias/ias-7/research-1/divisions/fire-dynamics/intro/3rd-summer-school-on-fire-dynamics-modeling-2022)

# Lecture Team

Simo Hostikka (Aalto University, Finland)  
Bjarne Husted (DTU - Technical University of Denmark)  
Kevin McGrattan (NIST)  
Randall McDermott (NIST)    
Marcos Vanella (NIST)  
Jason Floyd (Fire Safety Research Institute, UL Research Institutes)  
Lukas Arnold (Forschungszentrum Jülich GmbH)  
Alexander Belt (Forschungszentrum Jülich GmbH)  
Emanuele Gissi (Corpo Nazionale dei Vigili del Fuoco)  

# Presentation Template

A beamer presentation template has been set up in Overleaf.  Feel free to use this for preparing talks.  It is much easier to put the .tex source files under version control than Power Point presentations.

[Juelich Summer School Presentation Template](https://www.overleaf.com/read/vqkjkttyvnvn)

File: tga_example_data.csv
Time (s),T (C) ,Mass (-),MLR (1/s)
1.00E-02,2.00E+01,1.00E+00,4.23E-18
1.80E+01,2.30E+01,1.00E+00,8.09E-18
3.60E+01,2.60E+01,1.00E+00,1.53E-17
5.40E+01,2.90E+01,1.00E+00,2.85E-17
7.20E+01,3.20E+01,1.00E+00,5.24E-17
9.00E+01,3.50E+01,1.00E+00,9.54E-17
1.08E+02,3.80E+01,1.00E+00,1.72E-16
1.26E+02,4.10E+01,1.00E+00,3.05E-16
1.44E+02,4.40E+01,1.00E+00,5.37E-16
1.62E+02,4.70E+01,1.00E+00,9.35E-16
1.80E+02,5.00E+01,1.00E+00,1.61E-15
1.98E+02,5.30E+01,1.00E+00,2.75E-15
2.16E+02,5.60E+01,1.00E+00,4.64E-15
2.34E+02,5.90E+01,1.00E+00,7.76E-15
2.52E+02,6.20E+01,1.00E+00,1.29E-14
2.70E+02,6.50E+01,1.00E+00,2.12E-14
2.88E+02,6.80E+01,1.00E+00,3.45E-14
3.06E+02,7.10E+01,1.00E+00,5.57E-14
3.24E+02,7.40E+01,1.00E+00,8.92E-14
3.42E+02,7.70E+01,1.00E+00,1.42E-13
3.60E+02,8.00E+01,1.00E+00,2.23E-13
3.78E+02,8.30E+01,1.00E+00,3.49E-13
3.96E+02,8.60E+01,1.00E+00,5.43E-13
4.14E+02,8.90E+01,1.00E+00,8.36E-13
4.32E+02,9.20E+01,1.00E+00,1.28E-12
4.50E+02,9.50E+01,1.00E+00,1.95E-12
4.68E+02,9.80E+01,1.00E+00,2.94E-12
4.86E+02,1.01E+02,1.00E+00,4.41E-12
5.04E+02,1.04E+02,1.00E+00,6.57E-12
5.22E+02,1.07E+02,1.00E+00,9.72E-12
5.40E+02,1.10E+02,1.00E+00,1.43E-11
5.58E+02,1.13E+02,1.00E+00,2.09E-11
5.76E+02,1.16E+02,1.00E+00,3.04E-11
5.94E+02,1.19E+02,1.00E+00,4.40E-11
6.12E+02,1.22E+02,1.00E+00,6.33E-11
6.30E+02,1.25E+02,1.00E+00,9.05E-11
6.48E+02,1.28E+02,1.00E+00,1.29E-10
6.66E+02,1.31E+02,1.00E+00,1.82E-10
6.84E+02,1.34E+02,1.00E+00,2.57E-10
7.02E+02,1.37E+02,1.00E+00,3.59E-10
7.20E+02,1.40E+02,1.00E+00,5.01E-10
7.38E+02,1.43E+02,1.00E+00,6.95E-10
7.56E+02,1.46E+02,1.00E+00,9.60E-10
7.74E+02,1.49E+02,1.00E+00,1.32E-09
7.92E+02,1.52E+02,1.00E+00,1.81E-09
8.10E+02,1.55E+02,1.00E+00,2.46E-09
8.28E+02,1.58E+02,1.00E+00,3.34E-09
8.46E+02,1.61E+02,1.00E+00,4.51E-09
8.64E+02,1.64E+02,1.00E+00,6.06E-09
8.82E+02,1.67E+02,1.00E+00,8.12E-09
9.00E+02,1.70E+02,1.00E+00,1.08E-08
9.18E+02,1.73E+02,1.00E+00,1.44E-08
9.36E+02,1.76E+02,1.00E+00,1.91E-08
9.54E+02,1.79E+02,1.00E+00,2.52E-08
9.72E+02,1.82E+02,1.00E+00,3.31E-08
9.90E+02,1.85E+02,1.00E+00,4.34E-08
1.01E+03,1.88E+02,1.00E+00,5.66E-08
1.03E+03,1.91E+02,1.00E+00,7.36E-08
1.04E+03,1.94E+02,1.00E+00,9.54E-08
1.06E+03,1.97E+02,1.00E+00,1.23E-07
1.08E+03,2.00E+02,1.00E+00,1.59E-07
1.10E+03,2.03E+02,1.00E+00,2.04E-07
1.12E+03,2.06E+02,1.00E+00,2.61E-07
1.13E+03,2.09E+02,1.00E+00,3.33E-07
1.15E+03,2.12E+02,1.00E+00,4.23E-07
1.17E+03,2.15E+02,1.00E+00,5.37E-07
1.19E+03,2.18E+02,1.00E+00,6.79E-07
1.21E+03,2.21E+02,1.00E+00,8.56E-07
1.22E+03,2.24E+02,1.00E+00,1.08E-06
1.24E+03,2.27E+02,1.00E+00,1.35E-06
1.26E+03,2.30E+02,1.00E+00,1.69E-06
1.28E+03,2.33E+02,1.00E+00,2.11E-06
1.30E+03,2.36E+02,1.00E+00,2.62E-06
1.31E+03,2.39E+02,1.00E+00,3.25E-06
1.33E+03,2.42E+02,1.00E+00,4.03E-06
1.35E+03,2.45E+02,1.00E+00,4.97E-06
1.37E+03,2.48E+02,9.99E-01,6.12E-06
1.39E+03,2.51E+02,9.99E-01,7.52E-06
1.40E+03,2.54E+02,9.99E-01,9.22E-06
1.42E+03,2.57E+02,9.99E-01,1.13E-05
1.44E+03,2.60E+02,9.99E-01,1.38E-05
1.46E+03,2.63E+02,9.99E-01,1.67E-05
1.48E+03,2.66E+02,9.98E-01,2.03E-05
1.49E+03,2.69E+02,9.98E-01,2.46E-05
1.51E+03,2.72E+02,9.97E-01,2.98E-05
1.53E+03,2.75E+02,9.97E-01,3.59E-05
1.55E+03,2.78E+02,9.96E-01,4.33E-05
1.57E+03,2.81E+02,9.95E-01,5.20E-05
1.58E+03,2.84E+02,9.94E-01,6.23E-05
1.60E+03,2.87E+02,9.93E-01,7.45E-05
1.62E+03,2.90E+02,9.91E-01,8.88E-05
1.64E+03,2.93E+02,9.90E-01,1.06E-04
1.66E+03,2.96E+02,9.88E-01,1.26E-04
1.67E+03,2.99E+02,9.85E-01,1.49E-04
1.69E+03,3.02E+02,9.82E-01,1.76E-04
1.71E+03,3.05E+02,9.79E-01,2.08E-04
1.73E+03,3.08E+02,9.75E-01,2.44E-04
1.75E+03,3.11E+02,9.70E-01,2.87E-04
1.76E+03,3.14E+02,9.64E-01,3.35E-04
1.78E+03,3.17E+02,9.58E-01,3.91E-04
1.80E+03,3.20E+02,9.50E-01,4.55E-04
1.82E+03,3.23E+02,9.41E-01,5.27E-04
1.84E+03,3.26E+02,9.31E-01,6.09E-04
1.85E+03,3.29E+02,9.19E-01,7.01E-04
1.87E+03,3.32E+02,9.06E-01,8.03E-04
1.89E+03,3.35E+02,8.90E-01,9.16E-04
1.91E+03,3.38E+02,8.73E-01,1.04E-03
1.93E+03,3.41E+02,8.53E-01,1.17E-03
1.94E+03,3.44E+02,8.31E-01,1.32E-03
1.96E+03,3.47E+02,8.06E-01,1.46E-03
1.98E+03,3.50E+02,7.78E-01,1.62E-03
2.00E+03,3.53E+02,7.47E-01,1.77E-03
2.02E+03,3.56E+02,7.14E-01,1.93E-03
2.03E+03,3.59E+02,6.78E-01,2.07E-03
2.05E+03,3.62E+02,6.40E-01,2.19E-03
2.07E+03,3.65E+02,5.99E-01,2.29E-03
2.09E+03,3.68E+02,5.57E-01,2.36E-03
2.11E+03,3.71E+02,5.15E-01,2.38E-03
2.12E+03,3.74E+02,4.72E-01,2.35E-03
2.14E+03,3.77E+02,4.31E-01,2.25E-03
2.16E+03,3.80E+02,3.92E-01,2.08E-03
2.18E+03,3.83E+02,3.56E-01,1.82E-03
2.20E+03,3.86E+02,3.27E-01,1.44E-03
2.21E+03,3.89E+02,3.06E-01,8.35E-04
2.23E+03,3.92E+02,3.00E-01,0.00E+00
2.25E+03,3.95E+02,3.00E-01,0.00E+00
2.27E+03,3.98E+02,3.00E-01,0.00E+00
2.29E+03,4.01E+02,3.00E-01,0.00E+00
2.30E+03,4.04E+02,3.00E-01,0.00E+00
2.32E+03,4.07E+02,3.00E-01,0.00E+00
2.34E+03,4.10E+02,3.00E-01,0.00E+00
2.36E+03,4.13E+02,3.00E-01,0.00E+00
2.38E+03,4.16E+02,3.00E-01,0.00E+00
2.39E+03,4.19E+02,3.00E-01,0.00E+00
2.41E+03,4.22E+02,3.00E-01,0.00E+00
2.43E+03,4.25E+02,3.00E-01,0.00E+00
2.45E+03,4.28E+02,3.00E-01,0.00E+00
2.47E+03,4.31E+02,3.00E-01,0.00E+00
2.48E+03,4.34E+02,3.00E-01,0.00E+00
2.50E+03,4.37E+02,3.00E-01,0.00E+00
2.52E+03,4.40E+02,3.00E-01,0.00E+00
2.54E+03,4.43E+02,3.00E-01,0.00E+00
2.56E+03,4.46E+02,3.00E-01,0.00E+00
2.57E+03,4.49E+02,3.00E-01,0.00E+00
2.59E+03,4.52E+02,3.00E-01,0.00E+00
2.61E+03,4.55E+02,3.00E-01,0.00E+00
2.63E+03,4.58E+02,3.00E-01,0.00E+00
2.65E+03,4.61E+02,3.00E-01,0.00E+00
2.66E+03,4.64E+02,3.00E-01,0.00E+00
2.68E+03,4.67E+02,3.00E-01,0.00E+00
2.70E+03,4.70E+02,3.00E-01,0.00E+00
2.72E+03,4.73E+02,3.00E-01,0.00E+00
2.74E+03,4.76E+02,3.00E-01,0.00E+00
2.75E+03,4.79E+02,3.00E-01,0.00E+00
2.77E+03,4.82E+02,3.00E-01,0.00E+00
2.79E+03,4.85E+02,3.00E-01,0.00E+00
2.81E+03,4.88E+02,3.00E-01,0.00E+00
2.83E+03,4.91E+02,3.00E-01,0.00E+00
2.84E+03,4.94E+02,3.00E-01,0.00E+00
2.86E+03,4.97E+02,3.00E-01,0.00E+00
2.88E+03,5.00E+02,3.00E-01,0.00E+00
2.90E+03,5.03E+02,3.00E-01,0.00E+00
2.92E+03,5.06E+02,3.00E-01,0.00E+00
2.93E+03,5.09E+02,3.00E-01,0.00E+00
2.95E+03,5.12E+02,3.00E-01,0.00E+00
2.97E+03,5.15E+02,3.00E-01,0.00E+00
2.99E+03,5.18E+02,3.00E-01,0.00E+00
3.01E+03,5.21E+02,3.00E-01,0.00E+00
3.02E+03,5.24E+02,3.00E-01,0.00E+00
3.04E+03,5.27E+02,3.00E-01,0.00E+00
3.06E+03,5.30E+02,3.00E-01,0.00E+00
3.08E+03,5.33E+02,3.00E-01,0.00E+00
3.10E+03,5.36E+02,3.00E-01,0.00E+00
3.11E+03,5.39E+02,3.00E-01,0.00E+00
3.13E+03,5.42E+02,3.00E-01,0.00E+00
3.15E+03,5.45E+02,3.00E-01,0.00E+00
3.17E+03,5.48E+02,3.00E-01,0.00E+00
3.19E+03,5.51E+02,3.00E-01,0.00E+00
3.20E+03,5.54E+02,3.00E-01,0.00E+00
3.22E+03,5.57E+02,3.00E-01,0.00E+00
3.24E+03,5.60E+02,3.00E-01,0.00E+00
3.26E+03,5.63E+02,3.00E-01,0.00E+00
3.28E+03,5.66E+02,3.00E-01,0.00E+00
3.29E+03,5.69E+02,3.00E-01,0.00E+00
3.31E+03,5.72E+02,3.00E-01,0.00E+00
3.33E+03,5.75E+02,3.00E-01,0.00E+00
3.35E+03,5.78E+02,3.00E-01,0.00E+00
3.37E+03,5.81E+02,3.00E-01,0.00E+00
3.38E+03,5.84E+02,3.00E-01,0.00E+00
3.40E+03,5.87E+02,3.00E-01,0.00E+00
3.42E+03,5.90E+02,3.00E-01,0.00E+00
3.44E+03,5.93E+02,3.00E-01,0.00E+00
3.46E+03,5.96E+02,3.00E-01,0.00E+00
3.47E+03,5.99E+02,3.00E-01,0.00E+00
3.49E+03,6.02E+02,3.00E-01,0.00E+00
3.51E+03,6.05E+02,3.00E-01,0.00E+00
3.53E+03,6.08E+02,3.00E-01,0.00E+00
3.55E+03,6.11E+02,3.00E-01,0.00E+00
3.56E+03,6.14E+02,3.00E-01,0.00E+00
3.58E+03,6.17E+02,3.00E-01,0.00E+00
3.60E+03,6.20E+02,3.00E-01,0.00E+00
3.62E+03,6.23E+02,3.00E-01,0.00E+00
3.64E+03,6.26E+02,3.00E-01,0.00E+00
3.65E+03,6.29E+02,3.00E-01,0.00E+00
3.67E+03,6.32E+02,3.00E-01,0.00E+00
3.69E+03,6.35E+02,3.00E-01,0.00E+00
3.71E+03,6.38E+02,3.00E-01,0.00E+00
3.73E+03,6.41E+02,3.00E-01,0.00E+00
3.74E+03,6.44E+02,3.00E-01,0.00E+00
3.76E+03,6.47E+02,3.00E-01,0.00E+00
3.78E+03,6.50E+02,3.00E-01,0.00E+00
3.80E+03,6.53E+02,3.00E-01,0.00E+00
3.82E+03,6.56E+02,3.00E-01,0.00E+00
3.83E+03,6.59E+02,3.00E-01,0.00E+00
3.85E+03,6.62E+02,3.00E-01,0.00E+00
3.87E+03,6.65E+02,3.00E-01,0.00E+00
3.89E+03,6.68E+02,3.00E-01,0.00E+00
3.91E+03,6.71E+02,3.00E-01,0.00E+00
3.92E+03,6.74E+02,3.00E-01,0.00E+00
3.94E+03,6.77E+02,3.00E-01,0.00E+00
3.96E+03,6.80E+02,3.00E-01,0.00E+00
3.98E+03,6.83E+02,3.00E-01,0.00E+00
4.00E+03,6.86E+02,3.00E-01,0.00E+00
4.01E+03,6.89E+02,3.00E-01,0.00E+00
4.03E+03,6.92E+02,3.00E-01,0.00E+00
4.05E+03,6.95E+02,3.00E-01,0.00E+00
4.07E+03,6.98E+02,3.00E-01,0.00E+00
4.09E+03,7.01E+02,3.00E-01,0.00E+00
4.10E+03,7.04E+02,3.00E-01,0.00E+00
4.12E+03,7.07E+02,3.00E-01,0.00E+00
4.14E+03,7.10E+02,3.00E-01,0.00E+00
4.16E+03,7.13E+02,3.00E-01,0.00E+00
4.18E+03,7.16E+02,3.00E-01,0.00E+00
4.19E+03,7.19E+02,3.00E-01,0.00E+00
4.21E+03,7.22E+02,3.00E-01,0.00E+00
4.23E+03,7.25E+02,3.00E-01,0.00E+00
4.25E+03,7.28E+02,3.00E-01,0.00E+00
4.27E+03,7.31E+02,3.00E-01,0.00E+00
4.28E+03,7.34E+02,3.00E-01,0.00E+00
4.30E+03,7.37E+02,3.00E-01,0.00E+00
4.32E+03,7.40E+02,3.00E-01,0.00E+00
4.34E+03,7.43E+02,3.00E-01,0.00E+00
4.36E+03,7.46E+02,3.00E-01,0.00E+00
4.37E+03,7.49E+02,3.00E-01,0.00E+00
4.39E+03,7.52E+02,3.00E-01,0.00E+00
4.41E+03,7.55E+02,3.00E-01,0.00E+00
4.43E+03,7.58E+02,3.00E-01,0.00E+00
4.45E+03,7.61E+02,3.00E-01,0.00E+00
4.46E+03,7.64E+02,3.00E-01,0.00E+00
4.48E+03,7.67E+02,3.00E-01,0.00E+00
4.50E+03,7.70E+02,3.00E-01,0.00E+00
4.52E+03,7.73E+02,3.00E-01,0.00E+00
4.54E+03,7.76E+02,3.00E-01,0.00E+00
4.55E+03,7.79E+02,3.00E-01,0.00E+00
4.57E+03,7.82E+02,3.00E-01,0.00E+00
4.59E+03,7.85E+02,3.00E-01,0.00E+00
4.61E+03,7.88E+02,3.00E-01,0.00E+00
4.63E+03,7.91E+02,3.00E-01,0.00E+00
4.64E+03,7.94E+02,3.00E-01,0.00E+00
4.66E+03,7.97E+02,3.00E-01,0.00E+00
4.68E+03,8.00E+02,3.00E-01,0.00E+00